Folder: python_scripts/742

File: HW1-Prob2.csv
Extension (mm),Force (N)
0,0
0.0220733,1444.37
0.0616086,3612.57
0.10438,5579.63
0.160176,6649.47
0.240813,6980.5
0.324213,7153.26
0.412122,7306.06
0.494089,7412.361
0.576234,7510.11
0.656484,7609.76
0.741643,7697.71
0.817567,7806.05
0.897019,7877.24
0.975716,7966.62
1.0506,8046.32
1.12573,8132.74
1.20488,8214.2
1.28054,8287.476
1.35803,8366.26
1.43065,8447.95
1.50866,8500.92
1.58117,8588.602
1.65255,8646.66
1.72818,8734.39
1.80209,8788.925
1.87406,8852.91
1.94655,8926.61
2.01909,8979.54
2.09179,9040.9
2.16388,9112.65
2.23661,9161.53
2.30997,9213.21
2.38337,9281.23
2.45503,9337.08
2.5274,9401.22
2.60055,9438.39
2.67147,9472.06
2.74328,9530.48
2.81543,9579.46
2.88521,9625.66
2.96008,9672.82
3.03056,9720.04
3.10259,9773.64
3.17408,9804.41
3.24403,9853.51
3.31641,9876.44
3.3872,9928.08
3.45699,9962.05
3.53007,10004.9
3.60177,10040
3.6759,10076.6
3.74587,10107
3.81557,10141.7
3.88756,10174.3
3.95822,10216.7
4.03052,10249.4
4.1034,10292.1
4.17474,10308.1
4.24513,10356.4
4.31924,10361
4.39142,10400.2
4.46389,10439.4
4.534759,10468.4
4.60761,10498.6
4.68294,10522.1
4.75288,10544.9
4.87253,10594.3
5.00386,10638.7
5.13837,10685.4
5.26945,10734.2
5.40872,10766.131
5.54153,10804.007
5.67052,10852.2
5.80483,10892.6
5.94618,10927
6.0837,10947.6
6.22341,10981.7
6.35367,11023.9
6.48993,11053.9
6.62787,11074.9
6.77275,11108.7
6.91244,11118.4
7.05966,11159.1
7.19832,11183.2
7.3467,11219.4
7.48936,11229.9
7.63745,11249.303
7.78252,11279.4
7.93299,11287.5
8.07554,11313.3
8.22765,11324.4
8.37647,11348.5
8.53313,11368
8.67196,11383.9
8.82726,11404.2
8.98075,11404.8
9.12728,11422.3
9.28227,11445.9
9.44212,11454.028
9.59965,11468.7
9.76123,11481.2
9.92107,11475.1
10.085,11495.4
10.2516,11503.189
10.4223,11511.1
10.589,11516.9
10.7678,11530.9
10.9401,11524.3
11.1152,11534.9
11.3001,11533.8
11.4824,11543.8
11.6751,11545.3
11.8651,11538.5
12.0682,11547.5
12.2756,11544.7
12.4831,11553.5
12.698,11544.666
12.9301,11534.8
13.1637,11546.6
13.4185,11544.246
13.6782,11524.6
13.9607,11516.9
14.2316,11488.9
14.5247,11473.1
14.832,11448.4
15.1615,11384.3
15.4831,11300
15.8275,11172.9
16.1332,11022.1
16.4887,10781
16.8137,10515.3